Time [s]	Current [nA]
0.000	19.971
1.019	59.955
1.997	70.341
2.999	71.051
3.988	61.773
4.999	72.792
5.993	60.719
6.994	70.323
7.997	71.080
8.993	61.841
9.992	67.861
10.993	67.426
12.019	66.075
13.000	71.552
13.989	63.593
14.996	68.116
15.994	49.744
16.998	24.300
17.997	39.836
18.994	45.933
20.016	57.235
21.001	64.765
21.997	65.957
22.997	67.993
23.993	62.946
24.997	72.204
25.990	61.788
26.992	66.660
27.998	72.955
28.995	63.685
29.998	72.176
31.022	66.595
31.996	63.751
32.997	67.626
33.994	68.599
34.997	71.478
35.994	63.146
36.997	67.690
37.993	67.262
38.992	67.561
39.998	69.476
41.015	60.269
41.995	69.687
42.997	68.756
43.997	68.493
44.997	67.593
45.993	63.913
46.994	70.922
47.936	66.448
48.997	69.267
50.002	66.958
51.005	56.724
52.007	56.781
53.002	58.286
53.994	50.197
54.992	55.806
55.994	56.038
56.991	59.372
57.999	59.617
58.993	52.409
59.994	56.638
60.992	56.908
62.025	62.143
62.996	54.989
63.999	61.310
64.990	53.375
65.995	57.664
66.993	59.012
67.995	61.970
68.999	62.842
70.013	59.166
70.995	55.188
71.994	60.454
72.994	59.594
73.996	62.369
75.000	63.539
75.995	54.622
76.995	60.294
77.995	61.794
78.993	63.621
79.999	57.648
