Time [s]	Current [nA]
0.000	17.996
1.061	43.257
2.000	42.381
3.000	43.696
4.000	43.396
5.001	43.896
6.000	44.940
7.000	41.196
8.000	30.897
9.000	22.398
10.000	34.697
11.000	43.596
12.000	42.896
13.066	47.931
14.000	43.143
15.001	42.596
16.001	42.396
17.001	40.396
18.058	41.245
19.001	45.383
20.001	42.496
21.001	42.796
22.001	40.696
23.055	42.406
24.000	41.372
25.000	43.196
26.001	42.596
27.001	42.596
28.001	44.496
29.001	40.296
30.001	42.996
31.001	42.596
32.063	43.969
33.001	43.173
34.001	40.096
35.001	43.696
36.002	43.396
37.002	42.896
38.002	42.996
39.002	44.996
40.064	42.463
41.001	41.511
42.001	42.896
43.001	43.196
44.001	40.696
45.001	43.396
46.002	44.596
47.063	40.995
48.002	45.895
49.002	39.896
50.002	44.596
51.002	44.696
52.002	39.496
53.002	42.996
54.002	42.896
55.002	43.796
56.003	44.296
57.003	40.696
58.002	43.339
59.002	42.996
60.002	42.796
61.002	44.996
62.002	40.996
63.002	43.796
64.002	43.296
65.002	42.896
66.003	43.096
67.003	40.896
68.003	38.496
69.003	5.399
70.003	3.600
71.065	27.587
72.003	34.538
73.061	39.221
74.003	45.218
75.003	43.196
76.003	42.038
77.003	40.296
78.003	38.296
79.062	42.300
80.003	46.117
81.003	42.696
82.003	42.196
83.068	40.935
84.003	42.028
85.003	42.796
86.066	40.391
87.064	43.382
88.063	42.939
89.066	45.858
90.063	39.916
91.073	42.471
92.004	41.994
93.003	43.139
94.003	44.096
95.003	43.296
96.004	40.596
97.004	42.796
98.004	42.296
99.004	42.296
100.004	42.896
101.004	30.797
102.004	31.497
103.069	35.677
104.004	40.852
105.004	42.796
106.005	45.095
107.005	39.696
108.005	40.296
109.005	40.696
110.005	41.196
111.063	38.749
112.004	36.872
113.004	36.996
114.004	38.296
115.004	40.196
116.005	39.996
117.005	39.996
118.005	44.496
119.005	39.396
120.005	44.096
121.005	44.396
122.214	20.263
