Time [s]	Current [nA]
0.000	1.365
1.000	42.996
2.000	47.095
3.000	41.396
4.000	44.995
5.061	46.316
6.001	44.783
7.000	46.442
8.000	44.596
9.000	41.396
10.000	44.796
11.059	46.454
12.000	45.054
13.000	46.995
14.059	43.150
15.060	44.296
16.001	43.354
17.001	46.595
18.001	45.695
19.060	43.150
20.001	43.566
21.060	45.888
22.001	43.035
23.001	46.495
24.001	45.995
25.000	41.738
26.001	44.696
27.001	44.296
28.001	45.295
29.001	45.295
30.001	42.596
31.001	45.195
32.001	44.396
33.001	44.196
34.001	46.095
35.001	41.996
36.002	44.995
37.002	44.396
38.002	44.196
39.002	44.596
40.002	46.995
41.002	41.796
42.001	44.640
43.001	44.396
44.001	44.496
45.001	45.695
46.002	45.895
47.084	41.585
48.002	44.331
49.002	44.096
50.002	44.396
51.002	45.795
52.002	41.996
53.002	44.496
54.002	44.096
55.002	44.296
56.003	46.095
57.007	45.513
58.003	40.458
59.003	44.796
60.002	44.140
61.002	44.496
62.002	45.995
63.002	41.896
64.002	44.696
65.002	43.996
66.003	43.896
67.003	45.795
68.003	44.796
69.003	41.396
70.003	45.096
71.003	44.696
72.003	44.396
73.003	46.095
74.003	41.796
75.003	44.796
76.004	44.096
77.003	44.040
78.013	45.639
79.003	40.804
80.003	46.795
81.003	44.596
82.003	44.596
83.003	40.196
84.003	45.995
85.003	45.795
86.004	40.696
87.004	44.596
88.004	43.896
89.004	23.198
90.004	30.497
91.004	37.796
92.004	45.095
93.004	45.895
94.004	46.095
95.003	45.841
96.004	44.596
97.004	39.896
98.004	43.296
99.004	42.996
100.004	43.096
101.004	44.796
102.004	41.296
103.004	44.196
104.063	45.038
105.004	41.866
106.005	45.096
107.005	45.095
108.005	43.596
109.067	41.992
110.005	42.000
111.005	43.396
112.004	45.241
113.004	41.496
114.069	41.874
