Time [s]	Current [nA]
0.000	16.262
0.942	45.112
1.942	42.996
2.942	40.396
3.942	43.296
5.004	41.655
5.943	45.789
7.001	40.450
7.943	45.537
8.943	40.796
10.005	42.180
10.943	42.320
11.943	43.096
12.943	43.096
14.014	40.799
14.942	46.870
16.007	42.289
16.943	41.556
17.943	42.896
19.006	44.210
19.947	42.929
20.943	40.458
21.943	43.396
23.001	40.639
23.943	45.537
24.943	43.096
25.944	40.696
26.944	43.996
28.006	40.297
28.944	45.944
30.003	40.506
30.944	43.035
31.943	44.240
32.943	42.996
33.943	42.696
34.943	42.796
35.944	40.296
36.944	37.796
37.944	40.096
38.944	35.496
39.944	37.996
41.009	39.057
41.944	38.071
42.944	35.296
43.944	38.696
45.010	39.620
45.945	36.788
46.945	38.396
47.945	40.196
48.944	37.434
49.944	39.796
50.944	38.996
51.944	39.396
52.944	36.996
54.022	39.977
55.001	37.790
55.945	41.353
56.945	38.896
57.945	39.296
58.945	40.696
59.945	37.896
60.945	40.996
61.945	39.996
62.945	39.896
63.945	40.996
64.949	41.430
66.007	40.204
66.945	39.442
67.997	38.019
68.945	41.979
69.945	42.496
70.945	38.396
71.945	41.196
72.945	40.296
73.945	40.496
74.945	27.197
75.946	10.499
76.946	19.398
77.946	27.597
78.946	34.397
79.946	38.096
80.947	40.455
81.946	38.234
82.946	41.796
83.945	41.637
84.945	40.596
85.946	41.096
86.946	39.296
87.946	42.696
88.946	38.196
89.946	40.796
90.946	41.296
91.946	42.896
92.946	42.496
93.947	42.054
95.005	39.410
96.005	41.738
96.947	40.017
98.009	44.722
98.947	41.893
100.006	40.128
100.946	40.209
101.948	45.405
103.008	41.694
103.946	40.401
105.005	41.544
105.947	41.229
106.950	45.858
108.010	39.713
108.947	42.472
109.947	43.896
110.947	38.996
111.947	41.896
112.949	45.405
113.947	38.673
115.004	41.055
115.948	46.019
117.008	40.279
118.010	41.712
119.009	41.838
120.003	40.237
120.947	45.970
121.947	38.796
123.009	43.404
123.947	12.898
