Time [s]	Current [nA]
0.000	37.117
0.944	41.945
1.944	43.796
2.944	38.896
4.001	43.042
5.003	41.954
5.945	42.459
6.945	44.296
7.944	38.234
8.944	42.896
9.944	42.396
10.944	42.496
11.944	43.796
12.944	39.796
13.944	42.696
14.944	41.896
15.945	41.696
16.945	43.496
18.034	40.216
18.945	42.367
19.945	43.296
21.007	39.732
22.007	42.196
22.945	42.959
23.945	43.996
24.944	42.538
25.945	42.096
26.945	41.996
27.945	39.096
28.945	43.296
29.946	43.652
30.945	38.635
31.945	41.796
32.945	42.096
33.945	43.496
34.945	39.396
36.008	43.498
36.946	39.761
37.946	41.596
38.946	41.396
39.946	43.796
40.946	39.796
41.946	41.796
42.945	41.337
43.945	41.496
44.945	43.296
45.946	39.896
47.018	43.373
48.003	38.270
48.946	44.958
49.946	41.896
51.008	41.333
51.946	41.254
52.946	38.196
53.946	41.596
54.946	41.596
55.947	43.296
56.947	38.896
57.948	46.249
58.947	41.938
59.946	41.637
60.946	41.396
61.946	39.596
63.006	40.845
63.946	41.060
64.946	41.196
65.947	44.995
66.947	39.696
67.947	42.396
68.947	39.996
69.947	41.896
70.947	41.896
72.012	43.658
72.947	41.921
73.947	39.996
74.947	42.296
75.948	41.196
77.006	39.694
77.948	46.068
78.947	39.035
79.947	43.596
80.947	42.796
81.947	42.196
82.947	42.196
83.947	39.496
84.947	43.396
85.948	38.396
87.005	42.569
87.948	39.869
88.948	41.696
89.948	43.596
90.948	43.596
91.948	39.096
92.948	41.996
93.948	41.996
94.947	43.439
95.948	43.596
96.948	38.396
98.013	40.184
98.948	14.009
99.948	19.498
100.948	31.097
101.948	34.197
102.948	40.296
103.948	40.696
104.948	42.096
105.949	42.896
107.011	41.427
107.949	39.655
109.011	40.297
109.949	44.558
110.949	41.996
111.949	39.496
112.948	43.539
113.999	39.768
114.948	43.621
115.949	41.596
117.010	41.278
117.949	40.145
118.949	42.896
119.949	38.396
121.155	22.386
