Time [s]	Current [nA]
0.000	30.500
0.997	49.343
1.993	46.682
3.021	50.676
3.997	51.634
4.988	46.110
5.990	49.446
6.936	51.686
7.995	48.059
8.998	52.039
9.990	45.358
10.992	48.798
11.990	49.294
12.994	49.796
14.020	47.656
14.997	52.912
15.993	45.322
16.992	48.143
17.992	49.595
18.995	51.141
19.998	51.740
20.994	45.076
21.992	49.093
22.998	53.374
24.019	43.580
24.996	51.172
25.999	53.188
26.994	45.523
27.992	49.394
28.988	48.991
29.995	49.846
30.998	51.441
31.992	43.859
32.995	46.954
34.003	51.384
35.022	48.325
35.996	45.889
36.999	50.444
37.992	44.104
38.991	46.642
39.999	51.384
40.997	46.388
42.000	51.241
43.012	47.723
43.998	44.925
44.995	47.738
45.992	48.891
46.999	50.243
47.996	44.830
48.999	48.849
49.992	48.434
50.999	47.463
51.999	51.695
53.022	44.864
53.999	51.991
54.996	50.647
55.995	49.193
56.996	48.347
58.005	35.279
58.992	11.650
59.997	22.187
60.996	32.830
61.992	41.863
63.003	45.297
64.022	48.474
64.993	46.442
65.997	48.749
66.999	48.598
67.999	47.995
69.000	50.744
69.997	46.134
70.997	50.395
71.988	50.045
72.996	49.896
74.038	49.131
74.992	48.318
75.996	50.942
77.000	50.493
77.999	48.143
79.001	48.199
79.996	39.494
80.997	38.058
82.015	35.360
83.003	37.547
84.000	36.205
84.992	32.960
85.998	37.210
87.001	38.979
87.996	32.761
88.993	36.305
90.000	39.817
90.997	34.500
92.000	38.780
93.026	35.961
93.997	33.982
94.996	36.433
95.995	37.672
96.997	38.419
98.000	39.876
98.997	34.400
99.989	36.891
101.001	39.917
101.997	37.245
103.019	39.820
104.000	40.057
104.997	35.704
105.994	39.956
107.002	40.075
107.994	42.838
109.001	42.796
109.996	37.182
110.995	41.137
111.993	15.730
