Time [s]	Current [nA]
0.000	13.660
1.000	47.195
1.997	44.730
2.935	46.584
3.935	50.195
4.935	48.295
5.936	47.395
6.936	47.695
7.994	46.498
8.993	45.141
9.997	48.103
10.998	46.848
11.998	47.295
13.019	47.498
13.935	48.030
14.935	49.295
15.936	47.595
16.998	44.440
17.995	47.337
18.936	48.348
19.993	46.826
21.000	48.059
22.000	47.295
23.001	47.148
24.018	46.701
24.998	45.098
25.995	49.292
26.937	46.068
27.999	48.394
28.997	47.290
29.995	44.585
30.992	49.644
32.022	46.403
33.000	48.564
33.996	47.184
34.936	45.208
35.990	46.624
36.995	49.050
37.997	47.999
38.999	47.001
39.996	47.237
40.990	45.066
41.999	48.954
43.023	46.382
44.002	49.433
44.997	47.935
46.000	47.201
46.996	44.473
48.003	49.250
48.992	43.373
49.995	47.553
50.994	47.443
51.998	48.601
53.013	48.764
54.008	43.111
54.995	48.830
55.998	47.400
56.996	47.590
58.003	49.449
59.000	44.629
59.997	47.939
60.994	47.939
61.998	48.202
63.000	43.908
64.018	47.048
65.003	50.858
65.999	48.136
66.998	47.042
67.999	47.248
68.996	44.529
70.003	49.052
70.995	43.443
72.003	47.317
73.000	47.939
74.022	46.473
75.003	50.556
76.000	44.574
76.997	48.240
77.998	47.648
78.997	47.042
80.001	49.597
81.004	43.864
82.024	47.544
83.005	48.721
84.005	47.095
85.003	47.490
86.001	44.429
86.999	49.494
88.004	47.358
89.004	46.795
90.000	46.883
90.939	47.386
92.021	45.097
93.006	48.726
94.004	47.791
95.001	47.638
95.997	43.011
97.000	49.048
97.997	44.329
99.001	47.206
100.002	47.248
100.997	47.030
102.001	49.597
103.025	46.675
103.999	45.170
105.005	46.814
106.139	33.712
