Time [s]	Current [nA]
0.000	14.508
1.004	40.434
1.994	36.663
2.995	39.057
3.994	38.435
4.993	39.035
6.000	40.254
7.031	39.763
7.998	21.197
9.000	7.684
9.996	14.155
10.996	21.598
11.999	28.910
12.993	30.983
13.995	33.729
14.995	38.696
15.939	42.838
16.999	39.147
18.036	38.955
18.995	39.621
20.000	40.095
20.997	39.615
21.995	39.575
22.995	41.196
23.999	41.629
24.996	36.506
25.993	39.353
26.995	39.517
28.021	38.885
28.996	41.534
29.996	37.696
30.997	40.256
31.995	39.675
32.995	39.796
33.996	41.255
35.002	41.190
35.999	36.004
36.995	39.554
38.000	39.598
39.016	38.677
40.000	42.374
40.995	37.484
41.997	39.816
42.994	39.615
43.996	39.417
45.003	41.248
45.996	38.365
47.017	43.580
48.002	36.748
48.995	39.774
49.998	39.478
50.998	41.696
52.002	41.530
52.996	36.415
53.997	39.457
54.996	39.436
56.000	40.674
57.014	41.317
58.004	40.198
58.940	38.458
59.997	37.177
60.997	39.796
61.990	41.486
63.007	41.490
63.997	36.461
64.997	39.496
65.995	39.916
67.000	41.389
68.017	40.507
68.996	38.301
69.999	39.677
70.998	39.736
71.997	39.836
72.999	41.313
73.940	39.954
74.940	40.296
75.998	37.272
76.998	39.696
78.036	38.917
78.998	42.096
80.003	41.588
81.005	35.925
81.998	39.875
82.997	39.636
83.996	41.237
85.003	41.505
86.000	36.442
86.998	39.876
87.942	41.945
89.039	40.652
90.005	37.781
91.000	38.087
92.002	40.216
92.998	39.755
93.998	39.596
94.998	41.496
96.005	41.248
97.032	39.139
98.000	36.980
99.000	39.496
100.005	40.096
101.003	41.779
102.000	37.509
103.000	40.296
103.997	40.016
104.999	39.816
106.000	41.496
107.005	41.986
108.028	39.585
109.005	37.560
109.998	40.882
110.999	40.156
111.942	40.293
113.000	39.032
114.008	40.472
114.999	40.359
116.001	39.956
117.005	41.828
118.016	36.693
119.005	41.654
120.008	40.275
120.943	38.606
122.001	41.300
123.001	38.096
124.000	41.738
125.001	40.356
126.001	39.436
126.999	40.176
128.005	41.745
129.003	15.029
