Time [s]	Current [nA]
0.000	40.593
0.935	45.878
2.001	48.682
2.992	44.597
3.990	49.193
5.013	46.669
6.003	48.581
6.936	45.869
8.002	48.307
8.995	44.608
9.995	49.095
11.001	48.603
12.002	46.948
12.998	47.686
13.993	44.217
14.998	49.348
16.015	47.141
16.997	43.478
17.998	47.148
18.999	47.048
19.936	48.448
20.998	46.041
21.995	47.839
22.995	47.095
23.996	47.048
24.998	49.296
26.022	41.638
26.996	49.584
28.002	48.206
29.001	46.942
30.002	46.649
30.992	44.137
31.990	48.492
32.994	47.107
33.995	46.549
34.996	46.948
36.017	47.936
37.007	42.723
37.997	17.473
39.002	16.715
40.002	27.397
41.002	35.196
41.999	38.612
42.998	45.141
44.002	45.215
45.003	46.895
46.002	47.543
47.037	45.986
48.000	45.271
49.002	49.795
49.990	43.315
50.993	47.353
51.995	47.001
52.999	48.501
54.000	49.446
55.017	47.239
56.000	43.332
57.001	47.148
58.000	47.243
59.004	49.895
59.994	45.753
60.995	47.048
61.993	47.190
62.999	47.013
63.994	45.523
64.996	48.398
66.004	47.364
67.003	48.544
68.003	47.395
69.004	47.548
70.001	44.830
71.003	49.696
72.000	48.441
72.994	42.853
73.993	47.843
74.996	49.048
76.037	46.149
77.001	50.825
78.001	43.996
78.997	47.686
79.994	48.140
81.000	49.399
81.996	44.674
82.997	48.247
83.996	47.243
85.000	47.406
86.021	48.525
87.006	43.447
87.939	48.120
89.004	49.197
90.001	47.939
90.996	42.810
91.997	49.246
93.002	49.448
93.996	43.155
94.996	47.195
95.998	47.348
97.020	46.277
98.006	49.995
98.996	44.440
100.001	47.458
101.001	47.195
101.998	47.337
103.001	49.845
103.997	44.674
105.030	46.023
106.006	49.278
107.002	47.485
108.070	27.993
