Time [s]	Current [nA]
0.000	19.510
0.934	31.367
1.934	32.697
2.992	31.755
3.934	32.481
4.995	31.382
5.996	32.397
6.996	32.797
7.991	33.665
9.007	33.461
9.935	31.893
10.996	31.382
11.993	32.294
12.935	34.710
13.935	31.497
14.935	33.997
15.936	33.597
16.935	32.930
17.996	31.100
18.935	32.798
20.030	33.787
20.997	32.675
21.997	33.497
22.935	35.071
23.935	33.397
24.935	34.197
25.998	33.236
26.936	32.726
27.994	31.377
28.936	35.453
29.936	33.997
30.936	31.197
31.936	33.897
32.993	31.501
33.936	34.779
34.993	30.934
35.936	33.542
36.936	34.797
37.998	31.824
38.936	35.178
39.936	33.597
40.936	32.997
41.936	31.197
42.936	33.297
43.936	33.297
44.936	32.897
45.937	33.097
46.937	30.697
47.937	33.897
48.937	32.797
50.000	31.794
50.937	34.788
51.936	33.030
52.936	31.497
53.936	34.597
54.999	30.947
56.000	32.897
56.937	34.788
57.937	31.197
58.937	34.097
59.937	34.097
60.937	36.196
61.937	33.097
62.937	35.896
63.937	37.296
64.990	35.134
65.938	34.949
66.938	35.696
67.938	35.596
68.996	34.968
70.018	35.319
70.997	38.505
71.937	34.358
72.937	35.496
73.937	35.496
74.937	36.896
75.938	34.197
76.938	35.996
77.938	35.196
78.938	35.596
79.938	35.496
80.938	37.096
81.938	33.097
82.938	35.096
83.938	34.997
84.938	35.396
85.939	37.196
86.938	33.330
87.938	35.696
88.938	20.098
