Time [s]	Current [nA]
0.000	34.623
1.019	41.016
2.000	40.465
3.005	41.687
4.001	41.361
5.001	41.437
6.000	43.239
7.006	43.534
8.001	38.388
9.001	41.396
10.000	41.537
11.042	45.581
12.003	39.850
12.944	42.291
14.002	40.166
14.996	41.948
15.999	29.837
17.005	13.518
18.009	22.408
19.026	28.709
20.007	31.291
21.002	37.886
22.000	38.774
23.004	42.625
24.006	44.906
25.003	39.153
25.945	45.112
27.009	43.887
28.005	40.257
29.007	44.507
30.013	42.242
31.003	38.582
32.001	42.180
32.997	42.064
34.004	43.193
35.007	44.407
36.004	38.512
37.000	42.064
38.000	42.396
39.004	43.322
40.031	41.671
41.007	44.565
41.945	41.041
43.000	39.806
44.000	42.296
45.000	44.296
46.012	44.011
47.000	39.571
48.001	42.254
49.005	42.725
50.012	43.590
51.010	43.282
51.997	41.333
53.003	42.739
53.999	42.566
54.999	42.296
56.004	44.219
57.012	44.341
58.004	39.714
58.997	42.695
60.001	42.526
61.029	41.825
61.998	46.229
63.008	44.550
64.004	39.554
65.001	42.724
66.001	42.839
67.006	43.976
68.008	45.205
69.028	42.839
70.005	39.402
71.003	42.481
71.997	42.953
72.999	14.070
