Time [s]	Current [nA]
0.000	35.877
0.936	67.301
1.936	61.694
2.936	71.893
3.936	68.093
4.936	67.793
5.996	63.922
6.937	69.175
7.937	70.393
8.937	61.994
9.937	66.693
10.937	66.693
11.937	66.693
12.937	70.293
14.003	66.035
14.991	61.431
15.938	70.712
16.938	67.393
17.944	68.085
18.937	64.042
19.937	66.793
20.999	62.706
21.937	69.929
22.937	65.593
23.937	62.694
24.937	68.893
25.938	66.893
26.938	60.194
27.938	65.993
28.938	68.793
29.938	62.294
30.938	67.493
31.938	67.593
32.938	65.593
33.938	65.993
34.938	68.593
35.938	62.756
36.938	67.093
37.938	65.893
38.999	67.571
39.938	63.465
40.938	59.394
41.938	53.295
42.938	56.694
43.938	56.094
44.938	57.694
45.939	59.594
46.939	60.194
47.939	54.295
48.939	58.494
50.005	61.345
50.939	58.881
52.022	54.381
52.939	61.935
53.938	59.253
54.938	59.194
55.939	60.894
57.001	60.540
57.939	62.787
58.939	61.894
59.939	60.394
60.939	60.394
61.939	59.894
62.939	63.194
63.939	57.194
64.939	60.494
65.940	61.194
66.940	60.994
67.940	63.094
68.995	59.994
69.940	59.465
70.939	62.556
71.939	61.694
72.939	61.394
73.939	63.494
74.939	59.194
75.940	63.494
76.940	61.694
77.940	61.094
79.139	38.528
