Time [s]	Current [nA]
0.000	1.632
0.937	66.055
1.937	61.694
2.937	62.394
3.937	59.694
4.937	57.794
5.938	62.394
6.938	61.494
7.998	63.956
8.937	61.549
9.996	60.806
11.026	60.868
11.937	62.123
12.937	62.294
13.937	62.994
14.937	63.994
16.000	62.047
16.996	57.022
17.938	65.599
18.996	58.973
19.938	62.626
20.938	63.594
21.938	63.294
22.938	62.894
23.938	61.994
24.938	62.094
25.998	61.467
26.938	62.441
27.938	63.794
28.938	62.594
29.938	57.394
30.938	64.694
31.938	63.994
32.938	59.194
33.938	61.794
34.938	62.394
35.939	61.694
36.939	64.494
37.939	64.394
38.939	57.894
39.939	61.894
40.939	62.694
41.939	62.994
43.000	61.257
43.938	63.746
44.997	60.334
45.939	66.518
46.939	62.194
47.939	64.094
48.939	59.294
50.002	60.201
50.939	65.949
52.001	58.092
52.939	66.305
53.939	60.094
54.939	64.394
55.940	57.294
56.940	62.694
57.940	62.394
58.940	64.394
59.940	57.494
60.939	63.657
62.004	64.688
62.939	59.887
63.939	62.394
64.939	64.894
65.940	58.894
66.940	62.694
68.003	58.414
69.003	61.794
69.940	62.000
71.020	65.456
71.940	61.624
72.940	58.494
73.940	62.694
74.940	61.994
75.941	65.094
76.941	63.994
77.940	57.852
78.940	61.694
79.940	61.794
81.179	36.719
