Time [s]	Current [nA]
0.000	30.519
0.999	62.356
1.938	57.928
2.938	59.594
3.938	59.694
4.937	61.255
5.938	60.794
7.000	59.504
7.938	57.457
8.938	58.594
9.938	58.094
10.938	60.594
11.938	55.894
12.993	55.919
13.938	61.158
14.993	55.634
15.939	62.216
16.939	56.494
17.939	60.894
18.939	59.994
19.997	54.909
20.939	62.308
21.938	61.355
22.938	55.794
24.010	61.095
24.999	54.393
25.939	62.827
26.939	58.394
27.939	56.094
28.939	61.494
29.939	59.094
30.939	58.094
31.939	58.194
32.939	55.594
33.939	59.194
34.998	55.802
35.940	56.636
36.940	63.094
37.940	43.996
38.940	34.397
39.939	45.241
40.939	47.195
41.939	55.194
42.939	57.494
43.939	59.494
44.939	58.394
45.940	60.694
46.940	52.795
47.940	57.194
48.940	57.694
49.940	59.694
50.998	56.800
51.940	57.319
52.940	58.894
54.000	60.088
54.940	57.228
55.999	57.556
57.000	60.434
57.940	56.803
58.940	58.694
59.940	59.194
60.940	61.094
61.940	56.194
62.940	59.394
63.940	59.894
64.940	59.494
65.941	59.594
67.003	58.939
68.002	62.056
68.941	58.248
69.941	59.594
70.941	59.494
71.941	61.094
72.941	55.594
74.024	60.289
74.940	60.256
75.941	59.694
76.941	60.394
77.941	61.394
78.941	56.994
79.941	60.794
80.941	59.594
81.941	59.594
82.941	61.794
83.941	54.695
84.941	61.594
86.100	34.366
