Time [s]	Current [nA]
0.000	7.035
0.994	46.172
1.994	50.595
2.994	46.895
3.994	49.795
4.994	49.595
5.995	49.395
6.995	51.395
7.995	46.795
8.995	49.695
9.995	49.095
10.995	49.195
11.994	49.344
13.048	48.382
13.994	49.467
14.994	49.595
15.995	48.895
16.995	49.195
17.995	51.295
18.995	46.895
20.077	50.827
20.995	48.797
21.995	49.395
22.995	49.795
23.995	46.995
25.055	48.343
26.058	49.845
26.996	47.543
27.996	53.495
29.057	49.005
29.995	49.142
31.063	46.905
32.060	50.847
32.995	48.017
33.995	49.495
34.995	50.595
35.996	46.395
36.996	49.395
37.996	49.095
38.996	53.495
40.058	48.771
40.996	47.543
41.996	50.595
42.996	45.295
43.996	48.895
44.996	53.295
45.997	46.495
46.996	51.146
47.996	45.495
49.052	50.279
49.996	51.584
50.996	45.595
51.996	50.095
53.054	48.388
53.996	48.191
54.996	49.295
55.997	48.995
56.997	51.095
57.997	51.395
58.997	46.195
59.997	49.495
60.997	49.095
61.997	49.295
63.051	48.951
63.997	54.646
64.996	45.641
66.054	50.894
66.997	52.275
67.997	47.495
68.997	51.395
69.997	45.395
70.997	54.095
71.997	49.495
72.997	49.695
74.051	44.682
74.997	53.906
75.998	45.995
76.998	49.595
77.998	49.395
78.998	50.995
79.998	51.295
80.998	45.095
81.997	50.746
82.997	49.395
83.997	49.495
84.997	51.795
86.063	32.673
86.998	26.842
87.998	36.596
88.998	43.196
89.998	48.195
90.998	43.896
91.998	50.295
92.998	49.795
94.054	46.681
94.998	51.690
95.999	50.395
96.999	46.995
97.999	49.995
98.999	48.595
99.998	49.144
100.998	50.895
101.998	44.796
103.109	34.920
