Time [s]	Current [nA]
0.000	43.617
0.934	58.774
1.934	61.294
2.940	62.618
3.934	55.427
4.934	63.494
5.934	60.555
6.934	59.994
7.934	60.394
8.934	62.494
9.934	57.394
10.991	58.272
11.992	60.633
12.990	60.315
13.934	64.930
14.934	56.494
15.935	62.494
16.935	61.294
17.935	60.094
18.935	60.394
19.935	62.594
20.935	57.394
21.992	58.462
22.934	63.794
23.934	60.394
24.934	60.394
25.935	57.794
26.935	62.294
27.993	58.217
28.935	63.688
29.935	60.394
30.997	59.034
31.935	61.081
32.935	61.294
33.996	57.958
34.935	63.998
35.936	60.994
36.936	57.194
37.936	62.194
38.936	60.494
39.936	59.494
40.935	60.054
41.935	56.994
42.935	61.394
43.935	61.694
44.935	60.794
45.936	59.594
46.936	59.894
47.936	56.794
48.936	62.294
49.936	61.194
50.936	59.794
51.936	59.894
52.936	62.394
53.936	54.795
54.936	63.494
55.937	60.394
56.937	59.594
57.993	56.718
58.936	66.271
59.936	56.794
60.992	57.949
61.989	60.175
62.936	63.563
64.021	56.123
64.936	61.524
65.937	62.494
66.937	61.294
67.937	59.794
68.937	60.194
69.937	62.494
70.937	57.194
71.937	61.294
72.937	60.194
73.937	60.094
74.937	60.294
75.937	57.952
76.937	61.994
77.937	61.394
78.937	59.994
79.937	60.394
80.937	62.394
81.937	57.194
82.937	18.198
