Time [s]	Current [nA]
0.000	16.157
0.999	40.737
1.999	47.295
2.999	45.096
3.999	44.696
4.999	44.796
6.000	42.196
7.000	46.395
8.000	45.195
9.000	45.095
9.999	41.637
10.999	44.896
11.999	47.295
13.059	44.430
13.999	43.719
15.065	46.193
16.000	43.311
17.000	46.795
18.000	42.596
19.000	45.395
20.000	45.295
21.000	45.295
22.000	45.595
23.000	46.795
24.000	43.096
25.000	28.897
26.001	24.098
27.001	32.597
28.000	35.932
29.000	42.796
30.000	43.696
31.000	44.296
32.000	45.395
33.000	45.595
34.000	43.596
35.000	47.495
36.001	45.895
37.001	41.896
38.001	45.595
39.001	47.395
40.001	41.896
41.001	47.195
42.001	45.895
43.064	47.126
44.001	43.752
45.000	46.942
46.062	45.330
47.001	44.085
48.001	45.695
49.001	45.395
50.001	42.096
51.080	46.891
52.001	46.684
53.001	45.495
54.001	45.295
55.060	42.718
56.002	46.174
57.060	44.514
58.002	44.582
59.056	46.485
60.002	43.653
61.002	45.395
62.065	45.057
63.001	45.936
64.001	45.695
65.001	45.395
66.002	45.195
67.002	43.196
68.060	44.419
69.002	48.721
70.002	45.195
71.002	45.595
72.065	42.893
73.064	48.043
74.061	42.523
75.014	48.315
76.003	41.553
77.003	45.595
78.003	47.295
79.003	42.996
80.002	45.541
81.002	46.095
82.065	47.596
83.057	41.427
84.002	46.027
85.002	47.195
86.003	45.495
87.003	45.095
88.059	43.083
89.003	46.076
90.229	30.992
