Time [s]	Current [nA]
0.000	16.134
0.942	42.459
1.942	43.496
2.942	38.596
3.942	41.296
4.942	45.195
5.943	39.696
7.029	39.499
8.001	45.263
8.942	40.272
10.001	42.961
10.942	40.697
11.942	43.096
12.943	43.053
14.003	39.807
14.942	40.252
15.943	41.896
16.943	41.996
17.943	42.796
18.943	43.296
19.943	38.296
20.943	41.496
21.943	41.596
22.943	43.496
23.943	43.796
24.943	38.696
25.944	41.496
26.999	42.934
28.034	41.059
28.943	43.560
29.943	39.996
30.943	42.196
31.943	41.696
33.000	43.231
33.943	42.095
34.943	43.696
35.944	38.196
36.944	42.296
37.944	42.296
38.944	41.896
39.944	43.296
40.944	43.796
42.005	40.147
42.944	40.358
44.004	42.637
44.943	42.168
45.944	43.496
46.944	41.796
47.944	38.496
48.944	41.596
49.944	45.295
50.944	40.196
51.944	43.796
52.944	38.896
53.944	41.796
54.944	45.495
56.007	41.898
56.945	41.147
57.945	43.496
58.945	39.096
60.001	43.367
60.945	44.911
61.944	40.136
62.944	43.996
63.944	38.996
64.944	41.896
65.945	45.695
66.945	39.296
67.945	43.296
68.945	40.496
69.945	42.596
70.945	41.896
71.945	45.595
72.945	39.796
73.945	43.996
74.945	38.896
75.946	41.596
76.946	44.995
77.946	38.196
78.945	44.340
80.001	41.568
80.949	44.616
81.945	38.450
82.945	42.196
83.945	43.296
84.945	43.496
85.946	38.696
86.946	42.496
88.007	42.691
88.946	40.358
89.946	42.996
90.946	43.296
92.003	39.826
92.946	44.110
93.946	41.896
94.946	39.696
95.947	43.696
96.946	37.934
97.946	42.396
98.946	41.796
100.007	42.974
100.946	41.955
101.946	42.996
103.008	39.544
104.004	41.462
105.008	41.131
106.009	43.796
107.034	37.265
108.006	43.926
109.006	41.896
110.002	41.562
111.006	41.331
112.009	43.964
113.001	39.714
113.946	41.054
115.002	43.083
115.947	44.063
116.947	38.896
117.947	42.896
118.947	40.696
119.999	8.079
