Time [s]	Current [nA]
0.000	33.077
1.002	47.001
2.030	45.132
2.945	49.394
3.945	48.995
4.945	47.495
5.946	46.595
6.945	46.442
7.945	48.895
8.945	45.395
9.945	47.795
10.945	46.995
11.951	46.914
12.945	42.149
13.945	46.995
14.945	47.495
15.946	42.796
16.946	46.795
18.004	48.105
18.946	45.643
19.946	46.895
21.008	43.028
22.007	45.641
23.006	45.141
23.946	44.251
24.945	48.444
25.946	43.896
26.946	45.795
27.946	45.995
28.946	45.695
29.946	46.595
30.946	45.195
31.999	43.775
32.946	43.924
33.946	44.896
34.946	44.995
35.947	47.195
36.947	47.395
37.947	41.396
38.947	45.595
40.002	47.389
40.947	44.757
41.946	48.644
42.946	48.395
43.946	42.796
45.008	48.157
46.007	46.442
46.947	46.591
47.947	44.296
49.008	47.875
49.947	45.150
50.947	47.695
51.947	46.895
52.947	48.195
53.947	43.096
54.947	46.895
56.008	48.014
56.948	45.208
57.948	48.495
58.948	49.195
60.024	45.163
60.947	47.558
61.947	46.695
62.947	46.895
63.947	49.095
64.947	45.095
65.948	47.295
66.948	47.395
67.948	46.995
68.948	48.395
69.948	48.895
70.948	48.095
71.948	44.596
72.948	47.995
73.948	47.695
74.948	49.095
76.006	46.448
76.948	46.386
77.948	47.195
78.948	47.095
79.948	48.495
80.948	47.195
82.002	46.485
82.948	45.239
84.006	47.254
84.948	44.688
85.949	48.595
87.007	46.404
87.949	45.431
89.007	47.632
89.949	45.537
90.949	47.495
91.949	48.395
92.949	43.896
93.949	46.895
94.948	45.241
96.015	47.087
96.949	47.426
97.949	48.695
98.949	42.996
99.949	46.495
100.949	46.195
101.949	46.595
103.008	46.643
103.949	45.373
104.949	45.795
105.950	46.495
107.009	39.751
