Time [s]	Current [nA]
0.000	33.330
0.995	45.423
1.995	48.195
2.995	47.995
3.994	48.143
4.994	48.195
6.056	48.346
6.995	47.599
8.054	45.605
8.995	45.692
10.054	48.626
10.995	47.285
11.995	45.395
12.995	47.195
13.995	47.495
14.995	47.495
15.996	47.595
16.996	49.295
17.996	44.596
18.996	47.695
19.996	46.595
20.996	46.395
22.053	46.448
22.995	46.492
23.995	49.995
24.995	48.395
25.996	47.395
27.058	44.722
28.056	49.394
28.996	48.187
29.996	48.195
30.996	47.395
31.996	47.295
32.996	44.596
33.996	46.895
34.996	45.495
35.997	49.095
36.997	49.395
37.997	48.895
39.054	47.867
40.057	50.543
40.996	47.599
41.996	48.395
42.996	48.195
43.996	47.995
44.996	50.595
45.997	45.995
46.997	48.695
47.997	48.995
49.054	46.258
49.997	49.200
50.997	50.495
51.997	49.295
53.059	45.758
53.997	51.807
54.997	49.095
55.998	47.095
56.997	51.546
57.997	49.395
58.997	48.995
59.997	34.897
60.997	14.099
61.997	19.398
62.997	29.197
63.997	36.396
64.997	41.296
65.998	43.496
67.056	47.916
67.998	51.269
68.998	51.695
69.998	51.595
70.998	51.595
71.998	53.695
72.998	47.095
73.997	52.747
74.997	51.795
75.998	50.895
76.998	51.095
77.998	48.295
78.998	52.295
79.998	51.095
80.998	50.895
81.998	51.795
82.998	47.695
84.088	51.830
85.061	48.555
85.999	53.939
86.999	50.395
87.999	50.595
88.999	47.395
89.999	51.895
90.999	46.795
91.998	50.545
92.998	50.895
93.998	50.995
94.998	51.195
95.999	47.595
97.055	48.669
98.056	50.045
98.999	52.699
99.999	47.495
100.999	51.995
101.999	50.695
102.999	50.095
104.060	47.498
104.999	10.862
