Time [s]	Current [nA]
0.000	10.403
0.999	36.433
1.999	34.697
2.999	37.696
3.999	36.796
4.999	35.396
6.000	35.796
7.059	35.313
8.000	35.278
9.000	37.796
10.062	34.272
11.000	38.589
12.055	33.551
13.056	37.359
14.000	36.543
15.001	36.596
16.001	35.396
17.001	35.796
18.000	37.634
19.065	35.114
20.000	36.788
21.060	34.431
22.000	38.613
23.000	35.896
24.000	34.397
25.000	37.696
26.056	34.594
27.001	38.091
28.001	35.396
29.095	36.925
30.001	33.330
31.063	38.603
32.059	32.627
33.001	37.576
34.001	35.496
35.002	37.096
36.001	33.830
37.001	36.396
38.001	36.096
39.001	36.096
40.056	34.309
41.001	36.398
42.001	38.596
43.001	37.096
44.059	34.118
45.001	38.743
46.002	35.096
47.002	37.696
48.002	37.596
49.002	37.396
50.002	36.696
51.056	35.006
52.007	40.375
53.001	35.409
54.001	37.496
55.001	36.696
56.002	36.996
57.002	38.796
58.002	33.797
59.002	38.596
60.002	37.096
61.002	36.096
62.059	34.339
63.002	37.006
64.002	37.896
65.061	34.779
66.003	38.850
67.003	36.296
68.003	37.096
69.003	34.197
70.003	38.196
71.002	37.033
72.053	34.725
73.053	36.196
74.002	39.090
75.065	36.155
76.061	33.129
77.057	35.840
78.062	36.215
79.003	38.785
80.063	35.751
81.003	36.060
82.003	36.696
83.060	33.866
84.003	37.642
85.003	37.296
86.004	34.297
87.069	34.363
88.003	39.182
89.003	36.096
90.003	36.696
91.066	35.180
92.003	36.603
93.058	34.783
94.003	38.938
95.003	36.396
96.004	38.196
97.004	33.797
98.004	37.696
99.062	35.157
100.004	39.062
101.004	36.896
102.060	36.265
103.004	37.390
104.004	37.796
105.054	34.887
106.062	36.405
107.004	40.654
108.004	34.097
109.061	36.704
110.153	25.455
