Time [s]	Current [nA]
0.000	9.925
1.000	39.796
2.000	35.796
3.000	38.296
4.000	37.896
5.001	37.796
6.001	39.696
7.000	39.936
8.000	35.097
9.000	37.596
10.000	41.796
11.000	35.896
12.000	38.196
13.000	39.196
14.060	36.128
15.000	35.847
16.001	36.996
17.001	37.396
18.001	38.096
19.001	33.697
20.001	36.996
21.006	40.294
22.001	33.765
23.001	38.296
24.001	34.697
25.000	36.633
26.057	37.686
27.001	35.484
28.001	36.996
29.001	38.196
30.001	33.097
31.001	35.796
32.001	35.396
33.001	35.796
34.001	37.096
35.001	38.396
36.061	34.746
37.002	34.959
38.058	38.727
39.002	38.344
40.071	36.947
41.002	37.805
42.062	39.996
43.001	37.270
44.001	38.396
45.057	38.006
46.061	40.932
47.064	38.979
48.061	38.411
49.060	38.034
50.002	38.107
51.002	39.296
52.002	36.596
53.002	38.796
54.002	38.396
55.002	38.996
56.003	40.996
57.003	41.596
58.003	35.796
59.060	38.880
60.056	38.249
61.002	36.571
62.054	37.924
63.002	41.557
64.002	34.897
65.064	39.770
66.003	37.163
67.003	39.196
68.060	36.893
69.003	36.688
70.003	37.296
71.003	40.896
72.003	37.696
73.003	35.096
74.003	38.596
75.003	35.496
76.004	39.096
77.003	39.235
78.003	40.596
79.003	40.996
80.003	35.396
81.003	38.996
82.003	37.896
83.003	37.096
84.003	38.896
85.069	37.461
86.004	37.322
87.004	36.596
88.004	37.496
89.066	37.002
90.004	37.310
91.004	39.496
92.004	38.596
93.004	38.096
94.003	39.035
95.003	40.396
96.004	36.996
97.004	39.596
98.004	38.296
99.004	38.496
100.004	40.696
101.004	34.996
102.004	40.796
103.004	38.896
104.004	38.196
105.004	38.696
106.005	40.096
107.005	37.096
108.005	40.596
109.005	38.496
110.005	38.096
111.005	38.596
112.004	36.833
113.004	40.296
114.062	37.898
115.004	41.079
116.005	39.196
117.005	40.196
118.005	37.296
119.005	39.196
120.005	38.196
121.005	37.496
122.069	36.087
123.005	38.458
124.005	38.896
125.064	36.764
126.006	40.548
127.006	37.696
128.006	39.196
129.005	34.931
130.081	39.215
131.062	34.349
132.162	18.725
