Time [s]	Current [nA]
0.000	23.276
0.993	39.472
1.935	45.218
2.935	41.796
3.935	41.296
4.935	37.996
5.936	43.296
6.936	43.596
7.936	42.296
8.936	41.496
9.936	41.796
10.936	39.896
11.936	42.996
12.995	39.939
13.936	39.741
14.936	44.995
15.937	37.596
16.936	44.340
17.936	43.096
18.936	38.396
19.936	41.096
20.936	45.095
21.997	41.372
22.936	42.168
23.936	37.996
24.936	42.496
25.937	41.696
26.937	41.696
27.937	42.396
28.998	40.712
29.937	40.890
30.998	42.597
31.937	40.678
32.937	43.096
33.936	43.739
34.936	42.096
35.937	39.196
36.937	42.096
37.937	41.796
38.937	42.796
39.937	42.696
40.937	38.896
41.937	41.996
42.937	42.096
43.937	43.996
44.937	42.996
45.938	39.796
46.938	42.596
47.938	41.796
48.994	39.769
49.998	43.322
50.938	42.017
51.937	41.637
52.937	41.896
53.937	41.796
54.937	42.696
55.938	38.996
56.938	43.596
57.938	41.996
58.938	41.896
59.938	37.896
61.000	44.158
61.997	39.214
62.938	40.591
64.000	30.129
64.938	10.767
65.939	17.198
66.939	26.097
67.939	30.497
68.938	35.332
69.992	39.465
70.938	45.556
71.938	44.896
72.938	41.296
74.015	44.842
74.938	42.249
75.939	42.996
76.939	42.396
77.939	39.896
78.939	44.696
79.939	39.296
80.939	46.295
81.997	39.694
82.939	42.459
83.939	43.896
85.002	40.353
85.940	42.365
86.939	42.338
88.004	43.751
88.939	42.883
89.939	40.196
90.939	42.896
91.939	42.396
92.939	41.996
93.939	43.896
94.939	38.896
95.940	44.296
96.940	42.496
97.940	42.296
98.940	42.096
99.940	40.096
100.940	43.796
101.940	41.996
102.940	41.896
103.939	42.238
104.939	38.496
105.940	43.396
106.999	41.450
107.940	41.760
108.940	41.396
109.940	42.196
110.940	43.496
111.996	41.473
112.940	40.886
113.940	41.996
114.940	42.196
115.941	41.596
116.941	44.296
118.007	41.272
118.941	40.788
119.995	39.844
120.941	44.287
121.940	12.511
