Time [s]	Current [nA]
0.000	13.665
1.000	44.496
2.000	45.395
3.000	41.796
4.000	44.596
5.061	45.656
6.001	42.443
7.059	42.056
8.000	46.754
9.000	41.896
10.000	44.196
11.060	44.618
12.000	41.592
13.000	44.896
14.000	44.796
15.001	40.396
16.001	43.496
17.001	43.096
18.001	43.496
19.001	44.496
20.001	40.996
21.001	43.996
22.001	42.296
23.001	42.296
24.001	44.596
25.002	44.696
26.001	39.436
27.001	42.896
28.001	42.296
29.001	42.296
30.001	44.696
31.001	39.596
32.062	43.068
33.060	41.880
34.001	41.122
35.002	43.596
36.002	43.896
37.002	38.996
38.067	43.939
39.002	40.317
40.002	42.396
41.002	43.896
42.059	37.745
43.001	44.900
44.001	41.696
45.057	39.901
46.002	41.795
47.002	42.396
48.002	42.996
49.002	42.096
50.002	41.596
51.058	39.390
52.002	41.309
53.002	43.296
54.002	42.296
55.058	39.048
56.003	43.911
57.053	41.139
58.003	39.680
59.003	44.096
60.003	41.796
61.002	41.137
62.002	41.296
63.002	42.496
64.064	41.051
65.058	38.163
66.003	43.699
67.003	41.196
68.003	42.096
69.003	38.496
70.003	42.796
71.003	41.596
72.003	40.796
73.003	40.796
74.065	40.109
75.003	41.467
76.004	42.396
77.004	41.396
78.003	41.537
79.003	41.696
80.003	40.496
81.060	41.056
82.066	41.547
83.003	43.646
84.003	40.996
85.061	40.772
86.004	41.777
87.004	41.496
88.004	42.696
89.004	41.696
90.004	41.996
91.004	39.596
92.061	41.056
93.004	45.064
94.004	41.096
95.004	41.396
96.004	43.139
97.004	38.796
98.004	43.596
99.004	42.296
100.004	41.596
101.004	41.796
102.004	39.996
103.004	43.696
104.004	42.396
105.004	42.196
106.005	41.796
107.005	43.396
108.005	38.696
109.005	44.496
110.005	42.396
111.005	42.196
112.060	40.186
113.004	41.945
114.004	43.796
115.004	42.596
116.005	41.996
117.005	41.696
118.005	42.196
119.005	17.498
