Time [s]	Current [nA]
0.000	68.541
0.919	69.960
1.919	69.293
2.918	68.462
3.918	68.993
4.918	64.494
5.919	70.793
6.919	69.193
7.919	67.993
8.919	67.393
9.919	69.693
10.919	63.494
11.919	70.493
12.919	68.193
13.919	68.093
14.977	64.738
15.978	71.393
16.920	68.146
17.977	64.894
18.920	71.679
19.919	67.561
20.919	67.993
21.980	67.006
22.919	68.364
23.919	68.393
24.919	67.493
25.920	67.693
26.920	70.293
27.920	63.894
28.920	67.993
29.920	67.893
30.920	67.293
31.920	67.793
32.920	69.893
33.920	64.494
34.920	68.693
35.975	63.751
36.921	70.606
37.920	70.363
38.920	62.294
39.920	68.793
40.920	68.193
41.920	66.893
42.920	66.793
43.920	69.293
44.920	63.794
45.921	67.393
46.921	66.293
47.921	66.593
48.921	68.593
49.921	61.394
50.975	66.122
51.921	70.923
52.921	66.393
53.984	68.479
54.920	66.874
55.921	62.894
56.921	67.693
57.921	66.593
58.921	66.393
59.921	67.893
60.921	66.993
61.984	66.221
62.921	64.881
63.921	65.893
64.921	66.393
65.922	69.293
66.922	63.794
67.922	67.893
68.922	66.393
69.922	66.693
70.922	67.293
71.922	64.094
72.921	69.162
73.921	19.698
