Time [s]	Current [nA]
0.000	59.128
0.937	66.909
1.937	63.394
2.998	68.042
3.937	63.252
4.937	65.793
5.938	67.893
6.943	68.451
7.938	61.401
8.938	65.993
9.938	65.693
10.938	65.893
11.996	64.644
12.938	72.392
13.938	61.194
14.938	65.593
15.999	68.484
16.939	65.632
17.938	66.960
18.999	64.650
19.938	63.785
20.938	65.493
21.938	65.593
22.938	67.893
23.996	64.549
24.938	65.174
25.939	65.493
27.000	67.665
27.939	64.637
28.939	67.093
29.939	61.794
30.939	65.593
31.939	64.694
32.939	64.993
33.939	67.593
34.939	67.593
36.004	62.400
36.939	62.347
37.939	64.594
38.939	64.794
39.939	68.193
40.999	64.239
41.939	63.611
42.939	64.794
43.939	64.794
44.939	67.393
45.940	66.993
46.940	59.094
47.940	65.293
48.940	63.894
49.940	64.594
50.997	63.002
51.940	65.423
52.939	64.358
53.999	66.125
54.999	63.694
55.940	64.249
56.940	59.994
57.940	69.893
58.940	58.794
59.940	62.894
60.940	62.994
61.940	65.793
62.940	59.894
63.940	63.894
64.940	62.594
65.941	62.794
66.941	64.894
67.941	64.294
68.941	58.694
69.941	63.094
70.940	62.256
71.940	62.594
72.993	62.102
73.940	69.053
74.940	58.194
75.941	62.594
76.941	29.197
