Time [s]	Current [nA]
0.000	16.386
0.999	44.940
1.999	44.696
2.999	44.996
3.999	43.596
4.999	43.896
6.000	46.095
7.000	42.296
8.000	44.896
9.000	44.496
10.000	44.596
11.000	45.995
12.000	41.696
13.000	46.095
14.000	45.095
15.000	44.196
16.001	44.296
17.001	42.396
18.001	45.895
19.055	42.785
20.000	47.403
21.000	44.396
22.000	45.195
23.000	39.696
24.000	45.195
25.000	44.696
26.001	44.196
27.001	44.296
28.001	45.995
29.063	44.252
30.001	43.386
31.001	44.296
32.001	44.196
33.001	45.895
34.001	41.496
35.001	46.495
36.001	44.840
37.001	44.596
38.001	44.995
39.001	42.396
40.001	46.095
41.001	44.896
42.001	44.096
43.065	45.860
44.001	42.944
45.001	42.096
46.002	46.095
47.002	45.095
48.002	44.596
49.002	44.296
50.002	41.896
51.002	46.595
52.002	44.896
53.002	44.896
54.001	44.040
55.001	44.296
56.002	46.595
57.065	44.304
58.002	44.072
59.002	44.296
60.002	44.796
61.002	46.495
62.002	42.496
63.002	44.796
64.002	44.995
65.002	44.396
66.003	44.396
67.062	38.051
68.003	34.534
69.003	33.497
70.003	32.597
71.002	33.730
72.002	33.997
73.002	31.497
74.002	35.596
75.002	34.697
76.003	33.197
77.003	34.097
78.003	35.696
79.003	32.297
80.003	34.397
81.003	33.197
82.060	31.785
83.076	34.741
84.003	34.301
85.003	36.296
86.004	36.096
87.004	37.096
88.004	35.996
89.003	36.433
90.003	38.996
91.003	37.296
92.003	30.297
93.003	12.899
94.003	15.898
95.003	21.998
96.004	29.897
97.060	30.773
98.004	40.144
99.004	40.796
100.004	42.596
101.004	37.196
102.086	40.661
103.004	38.994
104.004	39.596
105.062	37.839
106.004	40.230
107.004	41.896
108.061	38.123
109.004	42.626
110.067	42.047
111.004	41.511
112.004	38.596
113.004	42.296
114.004	40.896
115.004	40.996
116.061	38.727
117.010	44.674
118.005	39.092
119.005	41.996
120.005	42.296
121.005	41.596
122.005	44.696
123.124	17.961
