Time [s]	Current [nA]
0.000	35.096
1.000	40.696
2.000	31.697
3.067	15.650
4.000	21.541
5.000	27.097
6.001	34.897
7.067	39.114
8.001	40.039
9.001	43.496
10.062	41.843
11.001	41.316
12.001	43.096
13.000	42.238
14.000	43.796
15.000	42.196
16.067	41.365
17.001	40.681
18.066	43.000
19.001	40.531
20.001	44.096
21.001	40.896
22.066	44.033
23.001	40.745
24.001	41.896
25.001	42.696
26.002	43.496
27.002	39.496
28.002	41.196
29.002	42.296
30.002	41.996
31.001	40.236
32.001	43.596
33.001	42.096
34.001	42.396
35.001	42.296
36.002	42.296
37.002	39.996
38.002	43.796
39.002	38.696
40.063	43.068
41.002	40.571
42.057	41.133
43.002	41.795
44.070	42.411
45.002	41.949
46.003	41.296
47.003	41.196
48.002	43.339
49.063	40.901
50.002	40.252
51.068	42.491
52.002	39.396
53.064	39.732
54.002	39.761
55.002	42.596
56.003	41.596
57.003	41.796
58.003	41.796
59.003	42.396
60.003	38.696
61.003	41.996
62.003	40.996
63.003	40.996
64.003	38.296
65.003	41.796
66.003	43.439
67.065	38.132
68.065	40.696
69.003	44.132
70.003	40.096
71.003	43.696
72.003	43.196
73.003	41.896
74.004	41.754
75.003	37.434
76.004	42.796
77.004	42.796
78.004	38.196
79.004	41.096
80.004	41.596
81.004	43.296
82.004	39.296
83.003	43.039
84.003	43.196
85.003	41.496
86.004	41.496
87.004	43.496
88.066	41.145
89.004	39.975
90.004	40.996
91.004	41.796
92.004	42.696
93.004	39.196
94.004	41.896
95.004	41.396
96.005	40.696
97.005	40.996
98.005	41.796
99.070	39.996
100.079	40.729
101.070	40.662
102.069	40.837
103.004	39.247
104.101	28.712
105.069	31.331
106.070	29.168
107.005	29.195
108.005	30.197
109.005	31.597
110.005	27.397
111.071	31.235
112.005	29.547
113.005	30.697
114.005	31.097
115.005	31.497
116.006	29.897
117.071	33.799
118.005	31.796
119.005	32.997
120.005	33.097
121.005	32.297
122.005	34.497
123.005	32.397
124.005	31.897
125.005	32.097
126.006	35.396
127.079	32.522
128.080	14.184
