Time [s]	Current [nA]
0.000	6.923
1.000	31.197
2.000	32.397
3.000	29.497
3.999	30.828
4.999	31.197
6.000	31.497
7.000	33.897
8.000	30.397
9.000	32.097
10.000	31.797
11.004	36.052
12.000	32.326
13.000	35.296
14.000	30.697
15.000	33.697
16.001	33.197
17.001	32.797
18.063	35.872
19.001	34.432
20.001	31.997
21.001	36.096
22.000	36.333
23.000	36.996
24.000	36.796
25.000	32.497
26.001	37.396
27.001	36.796
28.001	36.696
29.001	38.196
30.001	35.196
31.001	37.596
32.001	37.296
33.001	38.596
34.001	39.696
35.001	34.597
36.002	39.296
37.060	36.669
38.002	40.973
39.001	39.035
40.057	38.254
41.001	39.932
42.001	40.996
43.001	39.896
44.001	39.696
45.073	38.185
46.002	39.609
47.002	41.296
48.002	40.096
49.002	40.596
50.002	39.996
51.002	38.296
52.062	44.052
53.002	40.102
54.002	40.796
55.002	39.896
56.003	41.096
57.002	39.335
58.002	42.396
59.002	41.796
60.002	41.996
61.002	41.896
62.002	43.396
63.002	40.596
64.087	44.327
65.002	42.509
66.003	43.196
67.003	42.196
68.068	42.437
69.003	43.846
70.003	42.896
71.003	38.396
72.003	43.296
73.003	45.495
74.059	42.799
75.063	43.465
76.003	42.443
77.003	42.696
78.003	43.596
79.003	44.696
80.063	42.826
81.003	43.187
82.003	43.596
83.003	43.996
84.003	44.796
85.003	44.196
86.004	40.596
87.004	43.296
88.063	44.471
89.004	46.648
90.004	41.596
91.004	45.795
92.003	40.336
93.003	43.796
94.003	44.796
95.003	44.896
96.004	46.095
97.004	46.195
98.004	41.196
99.004	44.096
100.061	45.407
101.004	43.474
102.004	46.695
103.004	41.396
104.004	44.096
105.004	43.396
106.005	43.596
107.005	46.495
108.005	42.096
109.004	44.540
110.004	44.995
111.004	45.095
112.004	46.095
113.004	46.095
114.004	40.596
115.004	45.295
116.005	44.796
117.005	44.096
118.005	46.995
119.066	44.670
120.005	44.617
121.005	44.596
122.005	43.696
123.005	45.096
124.167	28.396
