Time [s]	Current [nA]
0.000	41.486
1.027	45.176
2.025	45.787
2.999	45.581
4.003	46.509
5.000	45.933
5.999	45.386
7.014	46.793
8.001	44.069
9.000	46.542
10.003	45.260
11.003	45.795
12.043	50.091
13.014	44.692
13.999	45.275
15.003	46.609
16.001	46.535
17.003	46.902
18.009	48.206
19.004	44.317
20.027	50.533
21.007	41.935
22.004	46.134
23.000	46.481
24.012	48.118
24.997	45.681
26.009	47.374
27.004	47.432
28.000	46.682
29.005	47.756
30.008	49.646
31.027	46.610
32.009	42.562
33.007	46.488
34.004	46.034
35.019	47.924
36.003	45.626
37.009	46.616
37.946	49.408
38.946	47.195
39.949	48.550
40.946	43.326
41.946	50.195
42.946	48.495
43.946	47.595
44.946	47.595
45.955	49.003
47.005	42.186
48.005	47.895
49.001	47.586
50.005	46.908
50.947	51.481
52.019	45.051
53.004	45.884
53.947	50.472
55.003	42.988
56.005	45.850
57.015	47.916
58.001	43.809
59.005	46.908
60.003	45.687
61.005	45.704
62.046	49.659
63.017	43.147
64.011	48.486
65.005	41.847
66.004	45.186
67.004	45.096
68.014	46.431
69.003	43.272
70.039	48.451
71.006	42.292
72.003	45.131
73.003	45.895
74.013	46.728
75.003	44.844
76.004	46.295
77.005	46.249
78.006	46.449
79.015	46.973
80.007	44.653
81.016	46.180
82.006	46.965
83.005	45.941
84.003	45.386
85.015	46.781
86.002	43.461
87.005	46.755
88.005	46.495
89.006	46.149
90.011	46.960
91.043	45.635
92.000	43.987
93.005	44.772
94.003	45.987
95.003	45.995
96.017	47.182
97.008	43.285
98.007	47.142
99.006	46.442
100.005	45.941
101.020	46.202
102.038	45.084
103.007	45.094
104.011	45.912
105.006	45.222
106.005	45.086
107.014	48.360
107.949	14.437
