Time [s]	Current [nA]
0.000	6.688
0.991	47.119
1.991	49.995
2.991	51.195
3.991	51.295
5.054	47.359
5.992	47.756
6.992	49.595
7.992	51.495
9.083	46.650
10.058	52.405
10.992	47.747
11.992	48.295
12.992	48.995
13.992	50.295
15.055	48.394
16.050	44.820
16.992	51.587
17.992	48.795
18.992	50.695
20.061	46.581
20.992	49.834
21.992	49.495
22.992	49.495
23.992	48.795
24.992	46.695
25.993	50.295
26.993	44.796
27.993	48.295
28.993	52.995
29.993	43.496
31.055	53.008
31.993	48.716
32.993	45.695
33.992	48.944
34.992	54.095
35.993	46.495
36.993	30.597
37.993	30.797
38.993	41.796
39.993	45.695
40.993	47.695
41.993	50.595
42.993	50.295
43.993	45.995
44.993	48.195
46.053	49.476
47.057	51.190
47.994	48.448
48.994	48.895
50.053	46.265
50.994	46.542
51.993	48.043
52.993	50.095
53.993	49.595
54.993	45.095
55.994	48.495
56.994	48.395
57.994	50.095
58.994	49.995
59.994	46.495
60.994	49.595
61.994	48.395
63.049	46.251
64.050	51.144
64.994	49.465
65.995	48.795
66.995	47.595
67.995	48.695
68.994	49.645
69.994	48.795
70.994	46.195
71.994	49.495
73.052	45.931
73.994	51.693
74.994	45.795
75.995	49.895
76.995	49.395
77.995	48.795
78.995	48.495
79.995	50.295
80.995	47.195
81.995	50.895
82.995	49.195
83.995	48.795
84.995	49.295
85.996	45.895
87.050	47.623
88.070	53.818
88.995	52.860
89.995	54.495
90.995	54.994
91.995	57.794
92.995	52.195
93.995	56.694
94.995	55.394
95.996	55.294
96.996	52.195
97.996	56.494
98.996	55.694
99.996	55.394
101.051	51.938
102.137	32.778
